timestamp,ax,ay,az,gx,gy,gz,mx,my,mz
1752689942.8796942,-0.0484,0.0547,-1.0156,-1.2425,-5.2413,-3.535,-0.1306,0.2057,0.5352
1752689942.9334896,-0.0915,0.0509,-1.0003,0.6125,6.2562,-1.855,-0.1281,0.2062,0.5348
1752689942.9817634,-0.0714,0.0603,-1.0017,-1.575,0.735,-5.4775,-0.1333,0.205,0.5331
1752689943.036506,-0.063,0.0671,-1.0252,-1.54,-0.5862,-3.57,-0.134,0.2047,0.5429
1752689943.0851946,-0.077,0.0705,-1.0244,-0.4987,5.3113,-1.5575,-0.1338,0.2075,0.5359
1752689943.1385481,-0.0716,0.047,-1.0463,0.595,1.6712,-2.625,-0.1385,0.2009,0.5314
1752689943.1867945,-0.0732,0.0523,-1.0009,1.5575,-5.81,-4.0425,-0.1295,0.2024,0.5312
1752689943.240593,-0.0626,0.0562,-0.998,0.7088,-0.49,-2.9925,-0.1313,0.2094,0.5338
1752689943.2887826,-0.0682,0.0559,-1.0213,0.9363,-0.1837,-2.4763,-0.1305,0.2052,0.541
1752689943.34264,-0.0637,0.0644,-0.986,0.6563,2.2488,-2.5638,-0.1309,0.2078,0.5396
1752689943.3909738,-0.053,0.0623,-1.0067,0.0088,0.9013,-3.1325,-0.1296,0.2044,0.5405
1752689943.4458463,-0.0432,0.065,-0.9726,0.2975,1.1812,-3.1588,-0.1296,0.2075,0.5386
1752689943.4941568,-0.0642,0.0578,-1.0436,-2.0213,2.4938,0.2275,-0.1301,0.2079,0.5314
1752689943.5478384,-0.1017,0.0594,-1.0177,-2.2138,2.3538,1.8812,-0.1299,0.2083,0.5317
1752689943.5960903,-0.1376,0.0409,-1.0436,-0.9275,13.4312,-1.575,-0.1308,0.2094,0.5335
1752689943.6498656,-0.1077,0.0527,-1.0135,1.7675,7.0175,-8.225,-0.1403,0.2086,0.531
1752689943.698312,-0.0479,0.0504,-0.9948,0.5513,3.4738,-8.96,-0.1401,0.2093,0.5271
1752689943.7519655,-0.0714,0.0569,-0.9446,-2.6425,-1.3825,-8.9075,-0.1488,0.2104,0.5251
1752689943.8001647,-0.0855,0.0487,-1.0235,-1.5662,7.4025,-4.5325,-0.1449,0.2122,0.5335
1752689943.8550022,-0.0823,0.0462,-1.0185,-1.995,5.5475,-4.7688,-0.1533,0.209,0.5328
1752689943.9031289,-0.1056,0.0431,-1.0231,-0.3325,-1.9075,-2.5288,-0.1512,0.2085,0.5299
1752689943.9570074,-0.1129,0.0268,-1.0064,0.3763,-1.1025,-5.4425,-0.1558,0.2103,0.5309
1752689944.0055084,-0.0935,0.0464,-0.9999,1.33,-0.8138,-3.0363,-0.1527,0.2103,0.5214
1752689944.0590882,-0.0848,0.0521,-1.0141,-0.455,-1.0412,-4.375,-0.1509,0.205,0.523
1752689944.1076035,-0.0814,0.057,-0.9948,2.3013,2.31,-4.375,-0.1498,0.2051,0.5215
1752689944.161099,-0.0566,0.0535,-0.9859,2.4237,3.1063,-0.28,-0.1485,0.2051,0.526
1752689944.2094955,-0.0901,0.0554,-0.9986,2.73,-4.3838,-1.1112,-0.1516,0.2059,0.527
1752689944.2661638,-0.0839,0.0647,-0.9801,5.0662,0.9538,0.6212,-0.1473,0.2043,0.5275
1752689944.3143582,-0.0841,0.0581,-0.9864,0.9363,-12.4775,-0.2013,-0.1415,0.2024,0.526
1752689944.3675652,-0.0877,0.0512,-1.0074,-0.2888,1.0675,1.2163,-0.1469,0.2045,0.5387
1752689944.4154274,-0.0836,0.0628,-1.0609,0.7175,-6.2913,-1.7413,-0.1425,0.2047,0.5326
1752689944.4682732,-0.0794,0.0617,-1.031,1.1112,-7.175,-0.595,-0.1373,0.2027,0.5323
1752689944.5168478,-0.0784,0.0673,-1.0689,2.8963,-3.6837,0.3063,-0.1373,0.1999,0.5419
1752689944.5703573,-0.07,0.0765,-1.0215,6.6413,-8.8375,-1.0237,-0.1298,0.1945,0.5386
1752689944.618605,-0.084,0.0868,-1.0374,7.3763,-5.2588,-1.1375,-0.126,0.195,0.538
1752689944.673405,-0.0638,0.0833,-0.9938,-0.9363,-5.3463,-2.3625,-0.1298,0.1959,0.5431
1752689944.7217982,-0.0393,0.0939,-1.0282,11.2087,-10.255,0.8138,-0.124,0.1901,0.5334
1752689944.7754166,-0.0551,0.1086,-0.9995,20.0725,-7.3238,1.855,-0.1212,0.1844,0.5375
1752689944.824161,-0.0607,0.1482,-0.9908,22.5575,6.5625,8.1375,-0.1141,0.18,0.5569
1752689944.877484,-0.0417,0.1297,-0.9924,16.31,-1.855,6.7375,-0.1205,0.1708,0.5491
1752689944.9261737,-0.0551,0.1936,-1.0229,62.6675,-17.6138,23.3187,-0.1089,0.1603,0.5585
1752689944.9805195,-0.0076,0.2061,-0.9601,26.32,-15.2425,0.5163,-0.0903,0.1324,0.5712
1752689945.0292437,0.0016,0.3115,-1.0607,83.02,-40.1275,9.1,-0.0855,0.1081,0.5793
1752689945.0826137,0.0359,0.323,-0.9408,116.4625,-35.56,7.3675,-0.0725,0.0648,0.5855
1752689945.1307445,0.0879,0.4513,-0.9557,110.5213,-7.9538,-4.97,-0.0619,0.0108,0.5894
1752689945.1846302,0.0427,0.5366,-0.824,104.0375,-9.3887,-10.29,-0.061,-0.0377,0.5979
1752689945.2329898,0.0711,0.6432,-0.758,146.4487,4.4275,20.5012,-0.0629,-0.0834,0.5778
1752689945.2866647,0.0712,0.9517,-0.6525,121.17,-22.6625,15.505,-0.0634,-0.1453,0.5604
1752689945.3410144,0.0407,0.8158,-0.7139,172.3312,-23.6775,27.2388,-0.0574,-0.2012,0.5421
1752689945.3888483,0.0513,0.8735,-0.5622,165.865,6.5625,37.275,-0.0617,-0.271,0.4946
1752689945.4494457,-0.0728,1.0232,-0.2993,220.57,-2.8438,42.2975,-0.0743,-0.3343,0.4441
1752689945.4917746,-0.0315,1.0011,-0.2224,130.0775,6.895,19.075,-0.0871,-0.3927,0.3625
1752689945.5405328,-0.0908,0.9117,0.0087,194.81,13.8337,12.8975,-0.0955,-0.4229,0.3072
1752689945.5937884,-0.0629,0.9606,0.0956,90.8863,-7.875,0.6125,-0.1071,-0.4441,0.2355
1752689945.6422517,-0.0683,1.0698,0.2641,189.9537,16.1087,-1.8288,-0.1039,-0.4613,0.1894
1752689945.6959453,-0.0351,0.9552,0.3913,71.5313,-5.0138,-0.3763,-0.1022,-0.4662,0.1116
1752689945.7445145,-0.1136,0.9148,0.4789,172.5675,7.9975,7.4988,-0.1,-0.4638,0.0881
1752689945.7989879,-0.0647,0.7491,0.577,154.2012,-5.5213,23.3712,-0.1198,-0.449,-0.0004
1752689945.847583,-0.1164,0.6229,0.7465,162.68,4.235,7.63,-0.1211,-0.4165,-0.0615
1752689945.9009993,-0.1183,0.4953,0.7679,131.3462,-5.3987,6.2475,-0.1338,-0.372,-0.1324
1752689945.9492884,-0.1361,0.4921,0.9423,177.695,5.5825,3.7713,-0.1357,-0.3318,-0.1821
1752689946.0030448,-0.1141,0.2722,0.8151,88.27,-8.2425,6.0813,-0.1431,-0.278,-0.2327
1752689946.0513458,-0.1193,0.1576,1.0973,207.9438,26.0225,21.455,-0.1567,-0.225,-0.2724
1752689946.105066,-0.0743,-0.0204,0.8871,73.3338,-8.225,-2.4413,-0.1495,-0.1666,-0.2992
1752689946.1614547,-0.0547,-0.1265,1.2216,217.6125,25.4625,13.65,-0.1525,-0.1019,-0.3205
1752689946.2081013,-0.0472,-0.2569,0.7741,116.9438,16.1175,-0.5338,-0.1393,-0.0272,-0.3452
1752689946.2563713,-0.0184,-0.4536,0.9756,176.2863,27.5625,3.6925,-0.1306,0.0343,-0.3542
1752689946.3101234,-0.0133,-0.5355,0.6345,149.8,27.4312,-2.1088,-0.1183,0.1175,-0.3591
1752689946.358409,0.0583,-0.7,0.7219,188.4837,26.7838,-2.8087,-0.1009,0.188,-0.3471
1752689946.412194,0.06,-0.905,0.5683,121.625,24.2375,-7.735,-0.0853,0.2594,-0.3287
1752689946.4763575,-0.0198,-0.6653,0.5367,86.3888,-2.9663,-0.5163,-0.0853,0.3066,-0.3063
1752689946.5142763,0.0948,-1.04,0.4112,116.8825,10.2287,-4.4975,-0.0797,0.3371,-0.2876
1752689946.5625024,-0.0544,-0.7443,0.4042,76.4138,11.6462,-4.9612,-0.0801,0.371,-0.2614
1752689946.6172912,0.0484,-0.9866,0.2292,123.1913,-2.73,6.335,-0.0826,0.4186,-0.232
1752689946.6655412,0.0268,-0.9575,0.2286,116.48,-15.4612,-7.7962,-0.079,0.4463,-0.1907
1752689946.719401,0.0564,-1.0146,0.1474,142.975,-29.0062,-0.28,-0.0868,0.4796,-0.1452
1752689946.767669,0.0203,-1.03,-0.1297,153.6412,-27.0637,-2.73,-0.0946,0.5102,-0.0851
1752689946.821436,0.0912,-1.009,-0.2042,168.5775,-35.1925,2.5025,-0.104,0.5417,-0.0122
1752689946.8701315,0.0791,-0.9353,-0.3242,148.3475,-19.5912,33.2325,-0.1009,0.5585,0.0409
1752689946.9234965,-0.0024,-0.7681,-0.5661,150.1938,14.28,73.6313,-0.0976,0.5627,0.1082
1752689946.9818478,0.0495,-0.9467,-0.5366,111.9213,40.0925,31.29,-0.0717,0.5671,0.1666
1752689947.0265348,-0.0806,-0.6821,-0.6215,108.0538,0.0875,38.0187,-0.0665,0.561,0.2096
1752689947.0752733,0.0864,-0.6903,-0.7047,42.1225,119.6388,21.9188,-0.0587,0.5513,0.2477
1752689947.1285841,-0.0511,-0.7074,-0.7931,52.9813,58.38,-6.1075,-0.0721,0.5471,0.2503
1752689947.1773376,-0.0418,-0.6037,-0.8183,96.1975,-6.6062,-61.4863,-0.0809,0.5351,0.2747
1752689947.2307034,-0.1028,-0.4243,-0.7449,112.6125,12.2937,-6.5538,-0.0945,0.504,0.3181
1752689947.2792351,0.0265,-0.4211,-0.9927,93.485,10.6925,-23.8262,-0.0953,0.471,0.3618
1752689947.3337426,-0.0373,-0.1147,-0.8086,126.3675,-57.2425,9.7037,-0.1,0.4372,0.3959
1752689947.3819642,0.0402,-0.2432,-0.9965,123.3313,-22.4437,11.0162,-0.0799,0.3926,0.4456
1752689947.435763,0.035,-0.1022,-1.0242,88.3225,-37.625,-1.68,-0.0627,0.3553,0.477
1752689947.484009,0.0432,-0.0981,-1.0203,73.43,-14.8575,-23.2225,-0.0463,0.3135,0.5145
1752689947.5377483,0.0249,-0.0643,-0.9868,1.8812,66.3775,-29.68,-0.0623,0.2909,0.5212
1752689947.5859606,0.0059,-0.0571,-1.0452,8.2337,29.5487,-16.7825,-0.0892,0.2953,0.5205
1752689947.6398406,-0.0675,-0.0018,-0.9159,41.58,12.6262,-39.9,-0.1021,0.2829,0.5085
1752689947.688564,-0.0226,-0.0249,-1.0621,34.2475,0.49,-24.4825,-0.1095,0.26,0.5177
1752689947.7429023,-0.0624,0.0261,-0.9638,4.3488,11.48,-23.7038,-0.1172,0.2488,0.5253
1752689947.7915363,-0.0709,0.0159,-1.0361,2.5288,4.6463,-0.63,-0.121,0.2394,0.5204
1752689947.844928,-0.0662,0.0077,-1.0662,-4.9088,16.275,-7.4637,-0.1221,0.2416,0.5204
1752689947.8933234,-0.0946,-0.0058,-1.0364,0.7175,11.3925,-11.8825,-0.1271,0.2411,0.5235
1752689947.9470487,-0.1186,-0.0215,-1.017,-27.4487,29.2512,-7.7438,-0.1366,0.2496,0.5134
1752689947.995253,-0.1605,-0.0584,-0.9981,-54.8187,44.975,-5.2325,-0.1548,0.2664,0.4904
1752689948.0490751,-0.1225,-0.0439,-1.0588,-66.2463,-32.655,2.9225,-0.1653,0.3027,0.4799
1752689948.1044388,-0.0755,-0.1717,-1.0338,-44.66,-35.42,-12.565,-0.1547,0.3247,0.4805
1752689948.1522007,-0.0586,-0.2089,-1.0079,-42.665,-22.4263,-14.735,-0.1455,0.3399,0.4613
1752689948.2003644,-0.014,-0.204,-0.9412,-65.6513,1.5837,-6.1775,-0.1481,0.3646,0.448
1752689948.254239,-0.0845,-0.2969,-0.9164,-105.7438,21.0263,-13.6588,-0.1525,0.3871,0.4252
1752689948.3024387,-0.1302,-0.3587,-0.975,-111.5538,66.0625,-20.09,-0.1757,0.4234,0.3767
1752689948.3562298,-0.1266,-0.6645,-0.8989,-108.5525,71.0763,-35.0612,-0.2027,0.4512,0.3181
1752689948.4046235,-0.1889,-0.6462,-0.8466,-97.6325,40.075,-28.8838,-0.2281,0.4696,0.2703
1752689948.4583127,-0.272,-0.6518,-0.7175,-96.32,2.7475,-0.455,-0.2292,0.478,0.2405
1752689948.5178502,-0.2253,-0.6947,-0.7336,-126.8138,-19.0225,-10.2812,-0.2292,0.4848,0.1966
1752689948.5617146,-0.2964,-1.1122,-0.456,-123.55,7.77,15.7325,-0.2267,0.4914,0.1586
1752689948.6096702,-0.2208,-0.7776,-0.3822,-109.2613,54.495,7.5163,-0.2239,0.4876,0.0979
1752689948.6634407,-0.2427,-0.917,-0.3041,-104.23,13.8162,21.035,-0.2139,0.488,0.0531
1752689948.7117355,-0.2436,-1.3034,-0.4674,-110.18,12.7225,41.6937,-0.1939,0.4868,0.0053
1752689948.7654912,-0.1186,-0.9715,0.0386,-175.2713,40.4162,51.3187,-0.1826,0.4739,-0.0491
1752689948.8138204,-0.1947,-0.936,-0.0916,-140.6037,21.6125,12.2412,-0.1604,0.4487,-0.1162
1752689948.8674946,-0.1423,-0.9055,0.109,-141.1463,24.7362,7.77,-0.1525,0.422,-0.1681
1752689948.925987,-0.1387,-0.8414,0.2035,-143.0975,20.895,-4.305,-0.1354,0.3787,-0.217
1752689948.9705825,-0.1582,-0.7884,0.3589,-174.51,12.7225,14.4987,-0.1284,0.3301,-0.261
1752689949.0189433,-0.1341,-0.8418,0.4613,-177.0125,14.14,25.0513,-0.1109,0.2601,-0.3143
1752689949.0725644,-0.1524,-0.8208,0.5736,-146.86,9.345,14.0787,-0.0974,0.1929,-0.3381
1752689949.1209707,-0.0761,-0.5912,0.7068,-114.24,-4.0075,35.945,-0.0844,0.1371,-0.3588
1752689949.1746235,-0.0293,-0.4911,0.9092,-213.1325,18.13,46.3488,-0.0797,0.0696,-0.3641
1752689949.2228224,-0.0581,-0.3403,0.8328,-165.3312,0.5862,36.5312,-0.0589,-0.0283,-0.372
1752689949.276649,0.0214,-0.2083,0.9492,-126.28,8.6187,62.2212,-0.061,-0.0794,-0.3675
1752689949.3381498,0.1402,-0.4279,0.9828,-66.4475,8.8112,14.105,-0.0535,-0.127,-0.3485
1752689949.3797863,0.0693,-0.0206,1.0028,-140.9888,-35.7875,14.35,-0.0574,-0.1677,-0.344
1752689949.428296,0.0056,-0.0133,0.7155,-67.8563,-55.2125,33.11,-0.0776,-0.2237,-0.3098
1752689949.4817505,-0.0808,0.0049,0.7978,-14.5162,-58.7475,-15.3475,-0.1105,-0.2405,-0.2881
1752689949.5300126,-0.0942,0.2269,0.946,-60.8037,-82.9325,-8.4875,-0.1317,-0.2615,-0.2534
1752689949.5838594,-0.3392,0.305,1.0496,-96.67,-94.15,-12.8187,-0.1473,-0.2832,-0.2251
1752689949.6454937,-0.0406,0.2365,0.8239,-117.145,36.1463,-76.965,-0.1691,-0.3139,-0.1876
1752689949.6869092,-0.4057,0.9387,1.3493,-105.4288,37.5725,-65.1788,-0.133,-0.3625,-0.1667
1752689949.7355437,-0.0457,0.2106,0.5189,-20.58,70.0088,10.5612,-0.107,-0.3895,-0.1579
1752689949.78892,-0.2635,0.7591,1.0507,-164.4475,-19.11,-35.665,-0.1029,-0.4073,-0.1358
1752689949.8376727,-0.0223,0.4722,0.5348,-151.0075,-87.3163,-36.2687,-0.0882,-0.4455,-0.0804
1752689949.891047,-0.1351,0.7608,0.7506,-151.8125,-33.775,-12.04,-0.0935,-0.4733,-0.0015
1752689949.9396598,-0.0096,0.8053,0.4808,-122.4913,-64.5575,0.63,-0.0854,-0.4861,0.0652
1752689949.9930696,-0.2458,0.839,0.4365,-82.5038,4.2263,18.4275,-0.0897,-0.4889,0.1151
1752689950.04144,-0.1482,0.8728,0.436,-77.1663,-56.9275,-31.4475,-0.0924,-0.4845,0.1499
1752689950.096108,-0.3052,1.1187,0.4232,-94.6838,-24.0362,12.005,-0.082,-0.4803,0.1939
1752689950.1444075,-0.1878,1.0175,0.3024,-29.1375,-21.7437,12.9062,-0.0896,-0.4745,0.2164
1752689950.1981847,-0.2897,0.962,0.2536,-133.8312,-17.2462,-3.5263,-0.0888,-0.4684,0.2395
1752689950.2463837,-0.2123,0.942,0.0706,-159.915,-20.335,-17.325,-0.0853,-0.4396,0.3097
1752689950.3002167,-0.2976,0.8413,0.1306,-222.8275,-73.4825,-114.9225,-0.0867,-0.4073,0.3716
1752689950.3485353,-0.2383,1.0329,-0.2967,-166.6262,-7.0262,-91.0088,-0.0427,-0.3738,0.4435
1752689950.402335,-0.0353,1.0446,-0.3424,-142.7388,3.92,-94.0538,-0.0181,-0.3359,0.492
1752689950.4608252,0.0129,0.9407,-0.4751,-141.155,-42.9012,-74.7863,0.0185,-0.2939,0.5251
1752689950.5057604,0.1665,0.81,-0.7205,-197.8462,-47.5825,-98.245,0.0573,-0.2297,0.5664
1752689950.5539026,0.1316,0.8125,-0.687,-28.1225,4.9437,-18.2175,0.0687,-0.1648,0.5908
1752689950.6074383,0.3418,0.7863,-0.6742,-19.1712,-50.085,-48.23,0.0692,-0.1414,0.5939
1752689950.6561596,0.245,0.5652,-0.7973,-70.98,-69.9388,-62.3787,0.1007,-0.1154,0.6002
1752689950.70951,0.2452,0.548,-0.6751,-47.7487,50.7238,-32.6637,0.1109,-0.0792,0.61
1752689950.757975,0.2823,0.6659,-0.943,-103.1625,63.6125,-42.7438,0.0841,-0.0623,0.6112
1752689950.8115146,0.1622,0.3895,-0.8342,-86.4413,144.9875,-89.2063,0.0475,0.0111,0.6038
1752689950.8600519,0.1698,0.2882,-1.0304,-104.5975,38.2638,-50.4087,-0.0027,0.0307,0.6037
1752689950.9136176,0.1048,0.3243,-0.9485,-84.1225,61.8187,-43.3737,-0.035,0.0806,0.5961
1752689950.975213,0.0417,0.141,-1.0409,-79.7825,32.8037,-41.3787,-0.0734,0.1096,0.5792
1752689951.0165873,-0.0064,0.1315,-1.0638,-9.7825,-16.6688,25.5062,-0.086,0.1455,0.5649
1752689951.0647051,0.2158,0.1568,-0.9734,-106.82,47.775,-35.28,-0.0752,0.1631,0.5628
1752689951.1186857,0.0753,-0.0009,-1.0733,-48.4225,10.7275,14.245,-0.0879,0.1957,0.5442
1752689951.1670697,0.153,-0.1269,-1.0189,-67.1563,9.3362,-20.825,-0.0857,0.2202,0.5425
1752689951.2207096,0.0173,-0.0575,-1.0047,-34.8862,-0.6388,-10.43,-0.0939,0.2432,0.534
1752689951.2690442,0.0932,-0.0586,-0.9747,7.2625,4.2088,-11.83,-0.0928,0.2444,0.5272
1752689951.3238015,0.0132,0.0002,-0.9172,-37.5025,4.1563,-17.5263,-0.1009,0.2486,0.5263
1752689951.3719647,0.0463,-0.1348,-1.0414,-39.8125,-1.0675,1.89,-0.1109,0.2622,0.5208
1752689951.4258444,0.0914,-0.0817,-1.0274,-40.74,-38.5262,-6.58,-0.1018,0.278,0.5239
1752689951.4741564,0.0928,-0.159,-0.9545,-20.8337,7.5513,-16.3187,-0.1037,0.2891,0.5095
1752689951.527928,0.0727,-0.1576,-0.9958,13.755,17.7712,-6.615,-0.104,0.2955,0.5008
1752689951.5765982,0.0453,-0.1665,-0.9536,-35.14,16.66,-15.1637,-0.1089,0.2867,0.5016
1752689951.6299267,0.0078,-0.1781,-1.049,22.1462,60.1912,30.5112,-0.1137,0.2901,0.499
1752689951.6782885,0.012,-0.1437,-0.9688,43.2163,14.7788,10.815,-0.1201,0.274,0.498
1752689951.7329836,-0.0414,-0.0991,-1.0516,31.185,-14.1837,17.7012,-0.1194,0.2654,0.4981
1752689951.7817829,0.0683,-0.0727,-1.0167,25.5762,-97.37,-9.2837,-0.1009,0.2619,0.5193
1752689951.8350372,0.1845,-0.0348,-1.005,10.7537,-124.0488,-4.0075,-0.0636,0.2509,0.5456
1752689951.883526,0.1984,0.0017,-0.9085,-8.8638,-165.865,33.495,-0.0014,0.2537,0.5475
1752689951.937081,0.4213,-0.0803,-1.0396,10.6225,-113.9513,38.745,0.0641,0.2499,0.5697
1752689951.9857674,0.4305,-0.0002,-0.8355,-1.9075,-127.6188,43.3563,0.1343,0.2541,0.5582
1752689952.039098,0.6002,-0.006,-0.8215,30.6425,-92.9425,-13.3612,0.181,0.2405,0.5587
1752689952.087342,0.6514,0.1347,-0.7083,-0.7613,-232.54,23.9487,0.2509,0.2296,0.5447
1752689952.142136,0.7579,0.0303,-0.6146,-27.4312,-240.2487,40.3288,0.3455,0.2275,0.4938
1752689952.1902158,0.8668,0.0696,-0.3559,-20.6937,-192.64,49.0,0.4364,0.2219,0.4388
1752689952.244156,0.9953,0.0357,-0.1949,-49.9275,-211.5925,-16.7038,0.4966,0.2219,0.3693
1752689952.2928193,0.9101,0.0464,-0.0679,-32.2612,-166.8887,14.5862,0.5422,0.2289,0.2899
1752689952.3565466,1.0395,0.0809,0.0424,-8.9162,-197.995,16.4062,0.5617,0.2282,0.2222
1752689952.3971837,0.8746,0.0735,0.1972,-43.6712,-271.5563,20.2038,0.5835,0.2118,0.1148
1752689952.4456425,0.8569,0.208,0.4308,-15.5225,-107.1088,34.8775,0.5806,0.2026,0.027
1752689952.500252,0.3789,0.0479,0.2665,81.27,-178.57,84.0263,0.5806,0.1793,-0.0147
1752689952.5484726,0.6353,0.2511,0.6715,4.6813,-184.0125,20.2475,0.5601,0.1625,-0.0801
1752689952.6023881,0.4926,0.2114,0.7681,7.0963,-128.38,18.8738,0.5331,0.1487,-0.1371
1752689952.650553,0.3742,0.2144,0.8743,-8.96,-155.085,-17.2462,0.5013,0.1515,-0.19
1752689952.704427,0.3702,0.2133,0.8958,-20.44,-158.7775,-0.9975,0.454,0.1504,-0.2426
1752689952.7529583,0.1966,0.2499,0.9003,-6.0462,-180.6175,-2.0738,0.4011,0.1446,-0.2825
1752689952.806521,-0.0299,0.2699,0.8913,-24.22,-162.7762,0.2013,0.3394,0.1477,-0.328
1752689952.8548682,-0.4823,0.0755,0.8554,-3.64,-147.4288,-46.0337,0.2768,0.1347,-0.3576
1752689952.9095418,-0.3583,0.2247,0.8273,-22.47,-138.0137,-43.435,0.196,0.1435,-0.3749
1752689952.9577582,-0.1964,0.2852,0.9166,-75.46,-121.3713,14.56,0.1457,0.124,-0.3907
1752689953.0115638,-0.417,0.3809,0.8114,40.95,-236.6175,17.0888,0.0857,0.0966,-0.394
1752689953.0602407,-0.5924,0.3277,0.8075,98.105,-156.2837,39.8737,-0.0183,0.156,-0.3669
1752689953.113619,-0.6311,0.1895,0.64,21.6562,-172.6725,102.0863,-0.0651,0.1917,-0.3489
1752689953.1619947,-0.8011,0.1411,0.5676,-7.5862,-154.7875,76.9825,-0.1197,0.2192,-0.324
1752689953.2156477,-0.7382,0.1005,0.5138,-24.9025,-79.695,-26.565,-0.1728,0.2264,-0.3069
1752689953.2740748,-0.8932,0.1492,0.519,-24.3075,-141.7325,7.1312,-0.2037,0.2167,-0.2834
1752689953.3187573,-0.9166,0.0752,0.2114,-41.4313,-86.7213,42.6738,-0.2346,0.2143,-0.267
1752689953.3671284,-0.8448,0.2176,0.3592,12.0575,-188.8687,0.1225,-0.2678,0.215,-0.2327
1752689953.4207602,-0.8176,-0.036,-0.2413,-18.3137,-75.5563,48.8425,-0.3207,0.2236,-0.1904
1752689953.4696138,-1.0207,0.0765,-0.0229,-62.685,-119.98,24.5788,-0.337,0.2405,-0.1623
1752689953.5228891,-0.9206,-0.0411,-0.2804,34.8162,-199.3075,-21.35,-0.3655,0.2376,-0.0941
1752689953.5802457,-1.0751,0.0395,-0.358,-36.47,-199.1763,4.7425,-0.4021,0.2346,-0.0262
1752689953.6259367,-0.746,0.0419,-0.4831,31.1763,-115.43,-0.0525,-0.4221,0.233,0.0458
1752689953.674051,-0.9978,-0.023,-0.6073,1.7413,-96.3288,23.8,-0.4245,0.2475,0.0967
1752689953.7279406,-0.7497,0.0082,-0.6443,43.8375,-175.4462,-15.7062,-0.4252,0.2541,0.1763
1752689953.7765925,-0.7944,-0.0177,-0.7887,-61.3725,-127.2513,46.34,-0.4067,0.2577,0.2181
1752689953.8300276,-0.5614,-0.0403,-0.8951,23.3887,-136.8675,-12.8625,-0.3835,0.2726,0.2656
1752689953.878256,-0.5933,-0.0009,-0.8888,28.84,-79.38,8.3825,-0.3584,0.2695,0.3171
1752689953.9321089,-0.495,-0.0027,-0.9579,39.1388,-82.6525,-1.7325,-0.3406,0.2639,0.3562
1752689953.9803014,-0.4097,0.0384,-0.9661,27.0462,-88.4625,-8.3125,-0.3171,0.2552,0.3923
1752689954.0351555,-0.3522,0.0525,-0.9714,-5.2238,-68.1013,6.4488,-0.2778,0.2499,0.4173
1752689954.083349,-0.3394,0.0401,-0.9958,-0.42,-91.9188,-4.7075,-0.2577,0.2544,0.4364
1752689954.1371744,-0.2763,0.0346,-1.0253,3.6575,-34.4487,-11.8037,-0.2313,0.2618,0.4498
1752689954.18565,-0.206,0.0279,-1.0492,-21.6125,-75.0138,-14.07,-0.21,0.26,0.4588
1752689954.2391922,-0.1524,0.0063,-1.058,0.3763,-25.9088,-1.8463,-0.1869,0.2677,0.4691
1752689954.2874377,-0.0442,0.0026,-1.0313,25.2875,-43.2513,16.0825,-0.1774,0.2622,0.4805
1752689954.3412426,-0.118,0.0328,-1.0285,24.5525,-13.545,1.6712,-0.1579,0.2575,0.489
1752689954.3899455,-0.033,0.0553,-1.0164,11.0075,-12.6437,-8.4087,-0.1611,0.2523,0.4924
1752689954.4433105,-0.0983,0.0852,-1.0193,1.9425,-1.7325,-3.045,-0.1571,0.2456,0.4963
1752689954.5007885,-0.0061,0.0604,-1.0143,-8.8112,-14.1487,-10.7537,-0.1533,0.2463,0.4995
1752689954.546406,-0.0617,0.0714,-1.0392,5.9763,0.9713,-2.1788,-0.1512,0.2414,0.5004
1752689954.6268725,-0.0101,0.0741,-1.0041,14.0525,-4.1125,-12.04,-0.1519,0.2366,0.5055
1752689954.6484122,-0.0747,0.0692,-1.021,5.2238,7.3413,-5.3725,-0.1547,0.2318,0.5018
1752689954.6967497,-0.1126,0.0851,-1.0159,20.0025,30.9225,-16.625,-0.1585,0.2278,0.5009
1752689954.7505221,-0.0638,0.1019,-1.0321,-8.3125,31.2112,-12.6175,-0.1742,0.2187,0.4988
1752689954.8079677,-0.2252,0.0215,-0.9881,-37.6338,113.5663,-28.9275,-0.1939,0.2276,0.484
1752689954.8535733,-0.1407,0.0323,-1.0031,-27.1425,115.1588,-34.1688,-0.25,0.2346,0.435
1752689954.9018137,-0.3354,0.0528,-1.0161,7.4812,104.3613,31.2637,-0.2799,0.2393,0.4074
1752689954.9555843,-0.4618,0.0806,-0.9633,29.3125,114.4063,-0.245,-0.3067,0.2418,0.3759
1752689955.0038993,-0.4762,0.0431,-0.9417,33.8362,56.42,23.135,-0.3304,0.2323,0.3538
1752689955.0576558,-0.6057,0.0617,-0.8937,-6.9475,108.045,-0.5425,-0.3461,0.2311,0.3394
1752689955.1057985,-0.6355,0.1152,-0.8299,1.4962,81.9263,6.79,-0.3658,0.2296,0.3025
1752689955.1596828,-0.7098,0.0692,-0.8201,-13.44,114.6775,7.7175,-0.3858,0.2351,0.2671
1752689955.207936,-0.7752,0.0831,-0.7383,8.715,104.4663,4.025,-0.4021,0.2397,0.224
1752689955.2627409,-0.8211,0.0723,-0.6435,-4.795,102.7513,8.75,-0.4157,0.2408,0.1873
1752689955.31126,-0.8366,0.0693,-0.5912,-0.2275,133.6825,-12.8975,-0.4245,0.2412,0.128
1752689955.3648176,-0.9823,0.0032,-0.5356,-6.2475,102.2,-20.0287,-0.4325,0.2325,0.082
1752689955.413655,-0.9825,0.0869,-0.4187,-18.3838,116.06,4.83,-0.4348,0.226,0.0325
1752689955.466861,-1.0058,0.0493,-0.4237,43.995,125.125,-26.635,-0.4231,0.2283,-0.0199
1752689955.5151756,-1.0444,0.0978,-0.1488,15.2775,130.5238,-28.6825,-0.4098,0.2195,-0.0692
1752689955.5689394,-0.993,0.1634,0.0052,-35.3587,145.7137,-21.5687,-0.391,0.2143,-0.1337
1752689955.6317296,-0.967,0.1114,0.0773,-19.9237,182.6475,-37.8787,-0.3553,0.2054,-0.1908
1752689955.6719997,-0.9823,0.1937,0.1747,-2.52,210.9187,-56.5513,-0.2974,0.1872,-0.2572
1752689955.7204647,-0.9453,0.1874,0.4551,2.6513,180.6175,-35.245,-0.2363,0.176,-0.3175
1752689955.774049,-0.8195,0.2011,0.5284,8.2337,185.8675,-12.1187,-0.1555,0.1719,-0.3546
1752689955.822728,-0.7359,0.2028,0.6387,16.3625,148.0063,-22.4962,-0.0781,0.1665,-0.3767
1752689955.8760889,-0.6051,0.1989,0.7392,-1.6187,154.945,-1.0675,-0.0071,0.1704,-0.3902
1752689955.9244251,-0.4699,0.2489,0.9071,53.4888,161.1837,-21.4638,0.0643,0.1726,-0.39
1752689955.9781234,-0.38,0.2185,0.8389,45.3688,135.8612,-9.6512,0.1239,0.1889,-0.3839
1752689956.0263665,-0.2151,0.1575,0.8906,53.1125,119.455,3.5263,0.1819,0.2013,-0.3669
1752689956.0811296,-0.182,0.1702,0.9125,8.0587,134.7062,5.8187,0.2306,0.2111,-0.3514
1752689956.1293437,-0.0745,0.1151,1.0289,21.2887,166.2675,24.9725,0.292,0.2068,-0.328
1752689956.1832075,0.1981,0.0526,1.0393,39.2525,147.0612,14.3413,0.3536,0.2096,-0.2811
1752689956.2315097,0.2354,0.0614,0.9963,23.2925,123.6988,11.515,0.4042,0.2072,-0.2398
1752689956.2852914,0.3747,0.0559,0.8841,26.005,127.995,3.3338,0.447,0.2085,-0.215
1752689956.3336174,0.3737,0.0439,0.885,22.1987,122.3338,0.0875,0.4773,0.2117,-0.1715
1752689956.3872955,0.5998,-0.0022,0.8036,22.6362,115.5788,4.3488,0.5051,0.2139,-0.1294
1752689956.4516916,0.6012,0.0166,0.7174,4.5675,100.695,-9.87,0.523,0.2149,-0.0871
1752689956.490414,0.6665,0.0023,0.5865,12.7225,115.115,-6.335,0.5389,0.2198,-0.0525
1752689956.5390172,0.6836,0.0343,0.519,-4.4187,109.0075,-8.2163,0.5537,0.2206,-0.0067
1752689956.5924048,0.9891,-0.0325,0.444,-49.6475,101.955,3.395,0.5659,0.212,0.0239
1752689956.6406739,0.8924,0.2471,0.3251,-40.5563,104.405,-2.2838,0.5781,0.1984,0.055
1752689956.6944594,0.9554,0.1229,0.3417,-11.62,100.485,-37.1175,0.5831,0.1952,0.0904
1752689956.7484128,1.0236,0.0393,0.2284,3.0975,115.5175,-7.595,0.5782,0.2072,0.1245
1752689956.7969046,0.9853,0.0535,0.1551,-28.0175,98.525,-35.1925,0.5734,0.2149,0.1632
1752689956.8446,0.9568,0.0525,0.0532,33.7837,91.7,-12.915,0.5666,0.2241,0.2104
1752689956.8995333,1.0888,-0.0099,-0.0337,-8.6275,120.2338,-31.7712,0.5484,0.225,0.2505
1752689956.9478283,0.9354,0.0132,-0.1665,33.005,131.04,-16.6338,0.5289,0.2376,0.3002
1752689957.0015771,0.9118,-0.0074,-0.3071,4.1563,119.875,-5.9325,0.5061,0.2421,0.342
1752689957.0499246,0.9027,-0.0054,-0.3819,4.5325,125.8425,-13.685,0.4739,0.2401,0.3893
1752689957.1036396,0.9132,-0.0301,-0.4332,17.3425,149.7825,-20.0462,0.4319,0.244,0.4311
1752689957.1523023,0.8014,-0.01,-0.6148,4.2438,130.3925,15.33,0.3791,0.251,0.4749
1752689957.2056043,0.7806,-0.0071,-0.7032,6.4138,139.2738,10.045,0.3364,0.2489,0.5044
1752689957.2542622,0.6927,0.0087,-0.7818,7.8313,102.55,26.355,0.2918,0.2502,0.532
1752689957.3087597,0.6105,0.032,-0.782,-30.3625,147.8312,32.3138,0.2638,0.2499,0.5508
1752689957.357087,0.4621,0.0082,-0.8613,-5.3375,93.3975,35.5425,0.2121,0.2587,0.5592
1752689957.4107835,0.3501,-0.068,-0.7368,-10.5612,130.06,0.63,0.1677,0.2625,0.5628
1752689957.459139,0.5219,-0.0357,-0.8054,-84.6913,53.9875,-27.1863,0.0956,0.2864,0.5559
1752689957.5128574,0.1138,-0.2758,-1.2078,-217.1225,61.8975,102.8125,0.0909,0.3535,0.5134
1752689957.5610964,0.0977,-0.3085,-0.9298,-11.41,119.14,-62.16,0.0655,0.379,0.4935
1752689957.615909,0.2238,-0.292,-1.0331,-74.795,37.8875,40.005,0.0218,0.411,0.4501
1752689957.6643465,0.1688,-0.2845,-1.0304,9.9837,-35.9888,47.6263,0.0182,0.4239,0.441
1752689957.7179983,0.1202,-0.2734,-0.9358,11.7425,30.3275,14.805,0.0375,0.4242,0.455
1752689957.7666876,0.1402,-0.283,-1.0343,46.4012,35.2363,9.2575,0.0251,0.4151,0.4501
1752689957.819992,0.0636,-0.2144,-0.909,74.2875,50.0937,39.9437,0.0209,0.3916,0.4774
1752689957.8686588,0.0687,-0.0802,-1.0131,70.49,-2.1175,-13.545,0.0188,0.3727,0.4966
1752689957.9221544,-0.0115,-0.0386,-0.972,52.15,-30.4412,-36.0763,0.012,0.3448,0.5096
1752689957.970196,0.1179,-0.0471,-1.032,41.3525,-4.41,-41.3,0.0176,0.3275,0.5236
1752689958.0252206,0.0725,0.0241,-0.9592,30.73,1.015,-14.0875,0.0112,0.3097,0.5345
1752689958.0734015,0.0753,0.0001,-1.0383,14.2012,-1.6712,-27.055,-0.001,0.3021,0.5533
1752689958.1271276,0.0742,0.029,-0.9933,-1.4088,4.8387,-24.3775,-0.0091,0.2974,0.5498
1752689958.1753793,0.1204,0.0011,-0.9925,2.1,-13.055,-27.5713,-0.0122,0.2919,0.5529
1752689958.2296526,0.083,0.0049,-1.0085,-13.9387,13.475,-15.1988,-0.0174,0.3011,0.5387
1752689958.277695,0.1019,-0.009,-1.0039,0.3325,-12.145,-9.135,-0.0207,0.2972,0.5506
1752689958.331281,0.1032,-0.0016,-1.0073,5.7925,14.5075,6.2913,-0.0203,0.2982,0.5425
1752689958.3795967,0.057,0.016,-0.9842,7.7962,-8.2687,27.9562,-0.0213,0.2992,0.5426
1752689958.434349,0.0824,0.068,-1.0365,21.4813,-5.8888,43.575,-0.0036,0.2965,0.5545
1752689958.482598,0.1698,-0.0015,-0.9875,-13.9125,-0.28,38.3512,0.0132,0.2957,0.5468
1752689958.5363653,0.0135,0.0927,-1.0088,-11.1125,-16.0912,31.57,0.0225,0.2954,0.5527
1752689958.5849748,0.2087,-0.0379,-1.3251,-7.5862,-16.5725,67.025,0.0508,0.3038,0.5541
1752689958.6384408,0.1103,0.0495,-0.9598,-31.2025,-32.1125,78.7063,0.0794,0.323,0.5289
1752689958.6867156,0.1341,0.0112,-0.984,47.775,53.2788,84.5425,0.0962,0.3171,0.5414
1752689958.7414734,0.0921,0.0515,-0.9751,-24.4475,-50.3737,164.2375,0.117,0.3062,0.5445
1752689958.7897127,0.1146,0.0875,-1.0441,40.5737,31.2112,139.1775,0.176,0.2789,0.548
1752689958.8434918,0.0979,0.1126,-1.0425,9.1875,49.595,142.2225,0.189,0.2688,0.5572
1752689958.8919756,-0.0281,0.1942,-0.997,91.5075,50.0412,170.3188,0.2085,0.2258,0.5713
1752689958.9455936,0.1049,0.2403,-0.9508,13.2212,15.7762,104.2475,0.2149,0.1963,0.5719
1752689958.9938767,-0.073,0.207,-0.9955,-5.1887,86.3013,148.4175,0.2212,0.1764,0.5786
1752689959.0476344,-0.1321,0.1602,-1.0687,-30.485,50.7412,182.805,0.2209,0.1686,0.5811
1752689959.0963326,-0.2036,0.1363,-0.9005,-24.5,-14.9888,173.6,0.2358,0.1634,0.5771
1752689959.1507158,-0.1344,0.0797,-1.0677,7.4637,-21.4463,142.2575,0.2629,0.1485,0.5739
1752689959.1994395,-0.1577,0.0558,-0.8819,-38.2112,-78.995,111.7988,0.3062,0.1261,0.5629
1752689959.252763,-0.1006,-0.0583,-1.0003,5.1013,-69.37,120.2163,0.3485,0.1033,0.548
1752689959.3015707,-0.155,0.1151,-1.0227,-68.1363,-15.19,168.5863,0.3805,0.064,0.5467
1752689959.3709013,-0.0797,-0.1354,-0.9616,-11.3487,-34.3,51.87,0.3975,0.0633,0.5387
1752689959.4031157,0.1918,0.101,-0.9746,61.425,70.4638,22.6887,0.3881,0.0594,0.5466
1752689959.4568393,-0.1618,-0.0983,-0.983,16.8612,52.1937,66.08,0.3835,0.0223,0.551
1752689959.5055642,-0.0721,0.0728,-1.0707,22.1287,51.5725,69.23,0.3585,-0.0251,0.5632
1752689959.5600226,-0.1784,-0.0001,-1.0428,47.4513,33.3725,142.3013,0.3384,-0.0686,0.5732
1752689959.6081946,-0.1837,-0.0106,-0.9859,-91.07,16.4325,142.5725,0.3112,-0.0819,0.5841
1752689959.661958,-0.119,-0.064,-1.0045,-2.275,-16.8787,94.8675,0.2978,-0.0815,0.5797
1752689959.7101398,-0.1262,-0.0651,-1.0009,-80.4038,45.2462,102.7163,0.2902,-0.0813,0.5895
1752689959.7640219,-0.2114,-0.0942,-0.9151,52.3862,35.63,90.685,0.2604,-0.0924,0.5992
1752689959.812302,-0.2762,-0.2199,-0.978,-95.8125,46.0163,84.07,0.2205,-0.093,0.6023
1752689959.866115,-0.2378,-0.1656,-1.0404,39.3225,-42.3587,88.795,0.2262,-0.092,0.5998
1752689959.914332,-0.301,-0.1629,-1.015,-9.0125,-22.7413,83.825,0.2271,-0.1126,0.5936
1752689959.969201,-0.1398,-0.5534,-0.9454,-70.945,286.6763,138.4075,0.2229,-0.118,0.6075
1752689960.0177152,-0.2634,-0.2283,-0.9709,8.6363,-14.245,87.36,0.1179,-0.1103,0.6075
1752689960.0712276,-0.1715,-0.2692,-0.9605,23.1437,-101.71,83.5538,0.125,-0.1326,0.603
1752689960.1197305,-0.189,-0.1635,-0.9696,13.3,-19.5912,94.57,0.1443,-0.1487,0.6418
1752689960.173223,-0.1063,-0.2647,-1.0455,31.9288,-29.3388,121.1875,0.149,-0.1624,0.6
1752689960.2373915,-0.0365,-0.18,-1.018,41.1338,-53.6987,43.5838,0.154,-0.1817,0.5923
1752689960.275311,-0.0444,-0.1494,-1.0971,28.9188,-31.5438,10.9025,0.1737,-0.2006,0.59
1752689960.3235748,0.1425,-0.1041,-0.9391,4.1213,-2.4675,24.99,0.1903,-0.2166,0.5765
1752689960.3783078,0.1629,-0.1247,-1.1093,44.3712,-11.9612,27.9913,0.1862,-0.2328,0.5782
1752689960.4266026,0.196,-0.1806,-0.9529,27.1425,-81.4625,88.9963,0.1953,-0.267,0.5593
1752689960.4803748,-0.0198,-0.1397,-1.0152,-28.5075,-37.0737,198.625,0.189,-0.2783,0.5489
1752689960.5288935,0.2156,-0.0954,-1.0494,-49.7962,69.475,166.6437,0.1539,-0.2713,0.5576
1752689960.5824492,0.1374,-0.0958,-0.9251,-60.1738,29.365,209.1337,0.0917,-0.2467,0.5683
1752689960.6307144,0.1845,-0.1214,-0.9801,-17.36,67.4363,103.4688,0.0378,-0.2131,0.5772
1752689960.68446,0.1576,-0.1351,-0.992,-32.6813,27.2213,144.2,-0.0071,-0.1961,0.5783
1752689960.7451062,0.1165,-0.1629,-1.0141,-26.5737,-17.85,161.0612,-0.0365,-0.1614,0.582
1752689960.7875354,0.0647,-0.149,-0.9679,-19.5475,-10.0975,170.1175,-0.0546,-0.118,0.5867
1752689960.83615,0.2568,-0.0932,-1.0131,-21.9713,-26.32,94.1325,-0.0629,-0.0783,0.5909
1752689960.889672,0.0907,-0.095,-0.926,-45.5612,16.8962,116.83,-0.0672,-0.0437,0.5918
1752689960.9379125,0.0897,-0.0391,-0.9587,-73.0013,-19.0662,64.82,-0.0753,0.0006,0.5902
1752689960.9916196,0.1821,-0.2424,-0.9576,-4.6813,9.8787,66.115,-0.0749,0.0367,0.5914
1752689961.0399115,0.2267,-0.194,-0.9877,-10.955,21.0525,58.94,-0.0862,0.0486,0.5856
1752689961.0937362,0.2023,-0.1281,-1.0002,25.2787,31.5525,73.4038,-0.092,0.0591,0.586
1752689961.1418684,0.1885,-0.1406,-1.0232,-2.835,-5.0138,49.1837,-0.1102,0.0568,0.5835
1752689961.1967888,0.1318,-0.0512,-0.9415,17.8587,-17.99,16.5112,-0.0998,0.07,0.5816
1752689961.2611935,0.2178,-0.1006,-1.001,13.5537,9.9663,33.11,-0.1039,0.0633,0.5811
1752689961.298836,0.1501,-0.0706,-0.969,1.4,11.8825,19.9062,-0.1046,0.0682,0.5747
1752689961.352849,0.1788,-0.0564,-0.9934,3.605,2.3013,1.1812,-0.1072,0.0662,0.575
1752689961.4015923,0.164,-0.0574,-0.99,1.8987,8.2512,5.1538,-0.111,0.0672,0.5758
1752689961.4491124,0.1419,-0.0606,-0.9926,4.0862,-11.0075,-8.4,-0.1144,0.0682,0.5744
1752689961.502962,0.1632,-0.0725,-0.9946,-6.1075,9.4237,-24.4475,-0.1091,0.0647,0.5695
1752689961.5512533,0.1688,-0.0767,-0.9809,-2.3363,-4.4713,-28.525,-0.1155,0.0588,0.58
1752689961.6059911,0.2081,-0.064,-1.0088,3.8763,-0.2187,-31.43,-0.1163,0.0588,0.5813
1752689961.654222,0.1227,-0.0851,-0.9826,5.0575,-5.6788,-42.4725,-0.1126,0.0542,0.581
1752689961.708043,0.2222,-0.0853,-1.0235,23.4412,3.0888,-63.245,-0.1148,0.0405,0.5832
1752689961.7565517,0.1435,-0.0756,-0.9897,17.0975,14.91,-111.4225,-0.1176,0.0111,0.5769
1752689961.810173,0.1198,-0.0848,-0.9606,19.9937,-4.4888,-119.7875,-0.1155,-0.0183,0.5806
1752689961.872848,0.1407,-0.0462,-0.9909,-2.1875,-16.4587,-121.0125,-0.1071,-0.0445,0.5775
1752689961.913155,0.105,-0.1046,-1.0134,36.9513,-23.66,-107.8875,-0.0902,-0.0728,0.5772
1752689961.9618785,0.2102,-0.0425,-1.0074,47.39,5.46,-125.0113,-0.075,-0.11,0.5802
1752689962.0152404,0.0694,-0.0538,-0.9702,57.1375,10.8937,-161.77,-0.0636,-0.1551,0.5727
1752689962.063476,0.1512,-0.033,-1.0473,33.67,17.85,-120.9338,-0.0406,-0.2006,0.5593
1752689962.117255,0.0019,-0.0148,-1.1185,-54.3288,22.645,-182.1925,-0.0192,-0.2216,0.5618
1752689962.1656594,0.1194,0.0585,-0.8323,-22.8113,26.2675,-133.4987,-0.0003,-0.2164,0.5648
1752689962.219322,0.0261,-0.1172,-1.1207,3.3425,9.5987,-116.095,0.0232,-0.2208,0.5613
1752689962.2678437,0.0479,-0.0503,-0.9665,17.9463,13.055,-161.0,0.0399,-0.2295,0.5607
1752689962.3224103,0.0177,-0.019,-0.933,37.4238,-28.3675,-108.9813,0.0769,-0.2471,0.5566
1752689962.3708694,0.0639,-0.0626,-1.12,23.87,14.945,-171.0012,0.1113,-0.2776,0.5443
1752689962.424402,0.0525,0.1941,-0.9078,119.8925,17.3687,-286.72,0.1631,-0.2947,0.5263
1752689962.4727683,0.029,0.1129,-1.0203,286.6763,-44.73,-286.72,0.2656,-0.3149,0.4942
1752689962.5264711,0.1916,0.3448,-0.9001,81.655,-45.9025,-238.6125,0.4124,-0.3307,0.407
1752689962.5747097,0.2456,0.4584,-0.826,86.975,-12.0662,-173.4775,0.481,-0.2958,0.373
1752689962.6284864,0.2794,0.2759,-0.9025,12.845,3.9375,-84.3413,0.5139,-0.2524,0.3604
1752689962.6771364,0.128,0.4116,-0.8664,-83.1775,126.1575,-86.2925,0.5109,-0.2164,0.3949
1752689962.7315838,0.2358,0.2949,-0.9538,-39.795,37.0475,-82.88,0.5114,-0.174,0.425
1752689962.7802627,0.0352,0.3497,-1.0451,-50.5312,128.3275,157.2462,0.4966,-0.1518,0.4425
1752689962.8335638,0.1098,0.245,-0.9231,-9.1787,25.8475,-44.5812,0.4456,-0.1709,0.4725
1752689962.881766,0.1085,0.1221,-0.9013,-7.77,3.1238,-137.4012,0.4619,-0.1315,0.4791
1752689962.9356737,0.0706,0.3046,-1.0386,-5.2413,21.6037,-58.0825,0.4718,-0.1,0.4782
1752689962.9844332,0.1189,0.1656,-1.0042,5.9938,8.925,-127.3913,0.471,-0.0745,0.4859
1752689963.0377395,0.1187,0.1507,-0.8791,3.9463,-6.86,-193.3837,0.4722,-0.0294,0.4889
1752689963.08607,0.157,0.0611,-1.105,10.0887,-25.1037,-222.8275,0.4861,0.0385,0.4739
1752689963.139782,0.2229,0.1728,-1.0066,0.6563,-3.3425,-122.465,0.4805,0.1049,0.4725
1752689963.2035544,0.2344,0.0065,-0.988,40.3725,-36.715,-226.7738,0.4647,0.1614,0.4721
1752689963.2428586,0.2747,0.1301,-1.0465,3.0888,31.255,-100.1963,0.4327,0.2205,0.4644
1752689963.2912278,0.2292,-0.0265,-0.9346,35.5687,-1.0675,-110.8275,0.4112,0.2408,0.4803
1752689963.3448765,0.3655,0.0332,-0.9655,14.5862,-2.7738,-213.8675,0.3812,0.2703,0.4753
1752689963.3936644,0.1347,0.1006,-1.0595,17.6662,-22.33,-98.3413,0.3394,0.3251,0.4717
1752689963.446966,0.3044,-0.024,-0.9893,1.3387,2.8,-117.285,0.3053,0.3451,0.4731
1752689963.4953644,0.281,0.0045,-0.8614,25.375,29.8725,-8.225,0.265,0.3583,0.4774
1752689963.5500388,0.219,-0.2464,-0.919,11.1912,42.3763,-47.5387,0.2642,0.3476,0.4908
1752689963.5981436,0.1903,-0.1075,-1.0544,6.895,-15.12,-137.0075,0.2425,0.3521,0.4955
1752689963.6520314,0.2289,-0.0492,-0.9912,6.615,14.21,-108.0363,0.2027,0.372,0.4908
1752689963.7006836,0.2178,-0.1053,-1.0202,7.5862,4.5938,-68.9413,0.1575,0.3797,0.4927
1752689963.7541358,0.2941,-0.1326,-0.9631,0.21,14.7525,-134.6625,0.1316,0.3888,0.5048
1752689963.8026178,0.2015,-0.157,-1.0199,-21.35,-17.7625,-214.9438,0.0721,0.3963,0.5009
1752689963.8561594,0.1168,-0.2134,-0.9382,-32.6463,25.1737,-182.6737,0.0155,0.4025,0.4929
1752689963.9157672,0.1484,-0.2414,-0.9896,-1.3387,68.53,-157.045,-0.0678,0.401,0.4791
1752689963.9593081,-0.0353,-0.3476,-1.0147,-35.5862,59.675,-142.59,-0.1326,0.3843,0.4603
1752689964.0078452,-0.1021,-0.2774,-1.0438,-34.5887,36.6188,-82.005,-0.182,0.3766,0.443
1752689964.061294,-0.0877,-0.1751,-0.9934,1.9862,-94.6838,-9.3712,-0.1924,0.3713,0.4357
1752689964.110033,-0.0588,-0.0473,-1.0372,23.2663,-62.3787,-16.2313,-0.1695,0.3674,0.4568
1752689964.1632903,-0.0143,-0.0113,-0.901,5.1188,-55.1775,-32.8213,-0.1462,0.3489,0.4715
1752689964.2119641,-0.0126,-0.4702,-1.0434,36.855,-21.3762,-86.7825,-0.1429,0.3252,0.4957
1752689964.2653568,0.0876,-0.0471,-0.9105,30.0037,-16.8525,-95.3225,-0.1553,0.3074,0.4983
1752689964.3249211,0.0476,-0.2552,-1.0117,141.1812,-34.6237,-94.9725,-0.1618,0.2381,0.5312
1752689964.3683825,0.1717,0.0646,-0.9651,30.1963,2.2138,-86.485,-0.168,0.1908,0.5442
1752689964.4167345,0.059,-0.1271,-1.1054,65.7388,-13.4663,-78.6888,-0.174,0.1506,0.5516
1752689964.4704895,0.0173,-0.0493,-1.0374,-22.0237,9.9137,-86.8788,-0.1816,0.0997,0.5555
1752689964.5188887,0.0797,0.0506,-1.0533,23.6513,11.1212,-77.8575,-0.18,0.0976,0.5608
1752689964.5724964,0.0031,-0.137,-1.1333,-11.7512,-21.3062,-77.2013,-0.1778,0.0567,0.5607
1752689964.6208098,0.0374,0.0188,-1.0929,-24.9813,12.5125,-95.5325,-0.1733,0.0603,0.5559
1752689964.6755464,0.0302,-0.0983,-0.9143,9.3712,4.5413,-106.925,-0.1802,0.0451,0.5512
1752689964.723834,0.0665,-0.0641,-0.9824,-15.8112,-4.4187,-96.5213,-0.1784,0.0279,0.5524
1752689964.7775528,0.015,-0.093,-1.0848,28.735,-15.68,-103.2763,-0.1673,-0.0028,0.5558
1752689964.8258007,0.1014,-0.0093,-0.9599,-4.1825,4.7512,-54.1012,-0.1613,-0.0223,0.558
1752689964.8796735,0.008,-0.1184,-1.0344,22.6712,1.5137,-82.25,-0.1527,-0.0423,0.56
1752689964.9279363,0.0113,-0.065,-0.9424,-1.9162,29.0937,-76.265,-0.1522,-0.0634,0.5485
1752689964.981722,-0.0725,-0.0863,-1.0429,4.515,20.2825,-81.235,-0.1597,-0.0742,0.5489
1752689965.0304651,0.0489,0.027,-0.9928,7.9275,31.43,-90.5888,-0.1562,-0.0976,0.5394
1752689965.0848045,-0.0316,-0.0032,-0.9693,24.0012,39.3925,-40.39,-0.1648,-0.1142,0.5307
1752689965.1332452,-0.1118,-0.0584,-0.8927,4.97,-20.9037,-65.2838,-0.1597,-0.1277,0.5348
1752689965.186884,-0.0278,-0.101,-1.0977,-5.4862,-28.6912,-23.275,-0.1343,-0.1481,0.5398
1752689965.235262,-0.0491,-0.023,-1.0346,-54.5387,-16.8262,-14.8575,-0.1116,-0.1435,0.5466
1752689965.2888722,-0.0609,-0.0809,-1.0039,14.98,0.2975,-61.0488,-0.114,-0.1397,0.5456
1752689965.3378205,-0.1594,-0.1926,-1.0321,-9.8262,-13.7112,-81.5938,-0.0959,-0.1564,0.5501
1752689965.3909242,-0.1329,-0.3388,-1.1405,-28.5425,-31.115,-58.415,-0.0725,-0.1768,0.5622
1752689965.4452486,-0.0178,-0.0878,-1.0105,50.5662,-35.5163,-72.6513,-0.0589,-0.1705,0.5583
1752689965.4931128,0.129,-0.071,-1.0413,3.43,-68.0225,-71.8288,-0.0206,-0.1968,0.5648
1752689965.5571823,0.1642,-0.0358,-1.0929,71.9863,-178.7975,-172.1387,0.0496,-0.2142,0.5618
1752689965.5959918,0.1962,-0.0247,-0.8255,55.7725,-98.3325,-123.69,0.1711,-0.2596,0.5432
1752689965.6442492,0.2239,-0.035,-1.0067,18.4713,-24.5088,-45.0537,0.2218,-0.2638,0.5407
1752689965.698076,0.4441,-0.1824,-0.9922,40.0488,-40.1275,-35.4813,0.2321,-0.2787,0.5159
1752689965.7466097,0.2805,0.0137,-1.0233,-21.3937,18.6637,-23.5812,0.2293,-0.2745,0.5285
1752689965.8000984,0.2991,-0.017,-0.9645,-17.0012,65.0213,7.9275,0.2225,-0.2674,0.534
1752689965.864469,0.153,-0.0359,-0.9773,-40.9325,33.0662,5.7575,0.1911,-0.2607,0.554
1752689965.9031332,0.1488,-0.0506,-1.0,-8.2512,8.4087,25.7687,0.1771,-0.245,0.5534
1752689965.9517443,0.1665,-0.0489,-1.0116,-0.2013,60.0337,66.4038,0.1464,-0.2443,0.5615
1752689966.0052094,0.0192,0.1078,-1.1191,-3.0975,48.7638,71.4525,0.098,-0.2412,0.5603
1752689966.0537887,0.1011,-0.0759,-1.077,27.755,-50.4525,0.315,0.1016,-0.2649,0.5474
1752689966.1072917,0.0935,0.1303,-0.9692,-19.0487,6.5713,49.1487,0.1028,-0.2678,0.5347
1752689966.1556354,0.0767,-0.0098,-1.0695,-12.25,81.1213,126.21,0.0626,-0.258,0.5352
1752689966.2092674,-0.1775,-0.2012,-0.9444,-54.7487,38.64,47.8712,0.0252,-0.2339,0.5492
1752689966.257702,0.0508,0.0284,-1.0004,-56.3675,0.1663,17.0187,0.0067,-0.211,0.5533
1752689966.3123317,0.0005,-0.1616,-0.9884,-51.8175,-69.7813,79.24,0.012,-0.1856,0.5666
1752689966.360908,-0.0256,-0.1184,-1.0128,-85.19,47.8712,53.9437,0.0085,-0.1533,0.58
1752689966.4144294,0.0463,-0.2903,-0.9168,-133.1488,53.9525,162.4525,-0.049,-0.083,0.5817
1752689966.4626124,0.0803,-0.3195,-0.917,-128.765,-5.2588,92.9513,-0.0533,0.012,0.5919
1752689966.5164309,0.1537,-0.5194,-0.9709,-100.9488,25.6287,73.4388,-0.0616,0.0725,0.5818
1752689966.5648115,0.1545,-0.4815,-0.7782,-99.855,-18.2262,70.9888,-0.0589,0.1329,0.573
1752689966.6184883,0.1591,-0.6032,-0.7666,-53.9788,-5.635,45.1237,-0.0454,0.1721,0.5688
1752689966.667095,-0.0135,-0.5982,-0.7571,-91.455,37.4762,8.8375,-0.0528,0.2108,0.5499
1752689966.7215617,0.1393,-0.6373,-0.7064,-59.5962,-31.5875,-2.94,-0.0658,0.252,0.5265
1752689966.7698047,0.1663,-0.721,-0.6897,-64.365,19.4862,-21.14,-0.0538,0.275,0.5183
1752689966.8236442,0.1385,-0.7599,-0.6832,-44.205,9.8525,26.8537,-0.0679,0.2971,0.5015
1752689966.8722067,0.1652,-0.8037,-0.5937,-46.69,-79.2925,42.8488,-0.0568,0.3228,0.4806
1752689966.9256897,0.3484,-0.7548,-0.5915,-72.4588,-104.1688,54.5563,-0.0106,0.3429,0.4773
1752689966.9739738,0.3773,-0.8848,-0.4754,-103.8363,-156.3975,64.7938,0.0521,0.3763,0.4572
1752689967.028747,0.4143,-0.7759,-0.3455,-71.7588,-15.2425,-15.4525,0.1228,0.4047,0.4332
1752689967.0775683,0.5811,-1.0594,-0.2612,-45.815,-108.2813,117.3463,0.1285,0.4316,0.405
1752689967.1308231,0.5012,-0.8845,-0.1969,-87.1588,-83.5188,-31.29,0.195,0.4481,0.365
1752689967.1794376,0.4884,-0.7243,0.0809,-100.03,-159.4425,60.445,0.219,0.4658,0.3168
1752689967.2328703,0.6025,-0.8312,0.1077,-95.3313,-115.8063,75.3025,0.2675,0.4736,0.2653
1752689967.281137,0.5292,-0.7279,0.2429,-154.0962,-189.525,107.7475,0.3125,0.4683,0.203
1752689967.3349524,0.5746,-0.4929,0.3572,-140.1488,-44.2663,160.7812,0.3737,0.4388,0.1228
1752689967.3832035,0.7333,-0.5004,0.5547,-136.8587,-48.6937,139.2475,0.4361,0.3945,0.0692
1752689967.4369586,0.6457,-0.3034,0.5726,-120.4613,-90.51,165.1562,0.4883,0.3332,0.0189
1752689967.485322,0.6616,0.1054,0.5848,-126.4638,-3.2375,164.7537,0.54,0.2387,-0.0392
1752689967.5495176,0.702,0.0964,0.7417,-99.7938,-17.3162,130.9438,0.5674,0.1576,-0.0623
1752689967.5910387,0.5975,0.2973,0.575,-95.3838,-32.2612,135.3013,0.5866,0.0809,-0.0797
1752689967.639628,0.4862,0.4251,0.5676,-58.9663,-6.8688,165.9613,0.5928,0.0008,-0.0847
1752689967.6931117,0.5143,0.612,0.6023,-101.8413,-16.3887,132.7987,0.5895,-0.0903,-0.0875
1752689967.741463,0.253,0.6221,0.4121,-126.3238,24.0275,177.1175,0.5818,-0.1582,-0.0804
1752689967.7952225,0.2941,0.7717,0.476,-127.1288,44.4238,166.7662,0.5576,-0.2491,-0.0491
1752689967.843495,0.0783,1.0034,0.289,-111.2563,49.7088,79.45,0.532,-0.3252,-0.0146
1752689967.8982832,0.0854,0.8904,0.2409,-89.4163,67.2963,142.4325,0.5018,-0.3763,0.0398
1752689967.9464757,0.0003,1.1283,0.1069,-69.2913,50.5138,89.1538,0.4542,-0.4207,0.082
1752689968.0002558,0.0049,1.1488,0.0224,-107.6338,48.2737,-19.0137,0.4337,-0.4355,0.121
1752689968.0487785,0.1146,1.1636,0.0561,-99.9513,117.215,-35.8838,0.433,-0.4263,0.1756
1752689968.1024191,-0.0016,0.9507,-0.1388,-105.0175,-23.4325,39.095,0.4211,-0.4179,0.2421
1752689968.150446,0.0002,1.0336,-0.1958,-69.5188,108.0013,-37.3275,0.4105,-0.4134,0.2702
1752689968.2054298,0.0548,1.2445,-0.2797,-44.7475,163.0825,-267.89,0.4194,-0.3798,0.341
1752689968.2535422,0.2137,0.9336,-0.6195,-99.2688,203.175,-69.1863,0.46,-0.2975,0.3896
1752689968.3074696,0.4097,0.8843,0.0977,-103.6875,80.5875,-198.03,0.442,-0.2379,0.448
1752689968.3560314,0.3371,0.5955,-0.1061,-121.5375,112.6388,-115.7275,0.4346,-0.146,0.4949
1752689968.4094992,0.4846,0.5941,-0.7258,-88.5763,42.6912,-137.2,0.4047,-0.0563,0.5312
1752689968.4579866,0.5635,0.4653,-0.8109,-173.0487,152.6875,-182.3325,0.3893,0.04,0.5432
1752689968.5115063,0.4539,0.376,-0.9783,-119.175,21.21,-94.2988,0.3164,0.1392,0.5561
1752689968.5600774,0.3991,-0.0453,-1.0455,-166.6087,96.0138,-185.885,0.2793,0.2285,0.5347
1752689968.6135209,0.4982,0.0302,-0.9145,-111.2038,27.58,-126.28,0.2022,0.3261,0.5134
1752689968.675218,0.2954,-0.2317,-1.0605,-129.92,35.5513,-108.7713,0.1683,0.3921,0.4754
1752689968.716662,0.4189,-0.3319,-0.8484,-155.5838,19.2413,-108.1588,0.1033,0.4501,0.4438
1752689968.7653875,0.3138,-0.6425,-0.7721,-155.0238,-62.6413,-62.4663,0.0734,0.4908,0.3767
1752689968.8187,0.3495,-0.5993,-0.7091,-137.9175,-20.2388,-103.565,0.0512,0.5277,0.3126
1752689968.8669841,0.2509,-0.8541,-0.3533,-179.4712,-68.2763,-116.1038,0.0108,0.5468,0.2535
1752689968.9207675,0.2878,-0.9067,-0.4911,-125.5188,-37.485,-138.3988,-0.0344,0.5538,0.1789
1752689968.984547,0.0886,-0.9401,-0.411,-129.5787,-34.7988,-139.0725,-0.1007,0.5377,0.1285
1752689969.0237799,0.0115,-1.0101,-0.291,-121.2838,-27.475,-97.4488,-0.1527,0.5155,0.0825
1752689969.0720987,-0.008,-1.0751,-0.189,-130.5762,-23.835,-67.1738,-0.1872,0.4906,0.0351
1752689969.125885,-0.0486,-1.0065,-0.0119,-145.9937,-47.4687,-18.6812,-0.2079,0.4614,-0.0038
1752689969.174337,-0.0569,-0.9923,0.0896,-116.4013,-126.875,-35.8925,-0.2316,0.4329,-0.0319
1752689969.2279615,-0.1019,-1.026,0.1875,-108.7363,-115.6488,33.775,-0.2496,0.418,-0.0283
1752689969.276654,-0.1251,-0.8679,0.366,-103.6,-73.3863,117.6263,-0.237,0.4222,-0.0449
1752689969.3300033,0.1125,-1.0213,0.2746,-81.0338,-142.87,221.7687,-0.2076,0.4413,-0.0489
1752689969.3896012,0.1269,-0.7754,0.3683,-108.3338,-89.1013,159.985,-0.1505,0.4761,-0.0504
1752689969.433008,0.0922,-0.751,0.4832,-81.06,-86.3538,188.7113,-0.0937,0.4841,-0.0777
1752689969.4814525,0.3769,-0.6026,0.6398,-63.8925,-49.7088,179.515,-0.0172,0.483,-0.1121
1752689969.5350988,0.2451,-0.8048,0.5365,-23.7038,-39.83,119.7,0.0358,0.4896,-0.1165
1752689969.583699,0.5482,-0.5586,0.6958,10.4562,-7.7,286.6763,0.1347,0.4735,-0.1245
1752689969.6371338,0.5594,-0.3467,0.6815,-44.6162,35.0,286.6763,0.2601,0.4378,-0.1257
1752689969.7014334,0.5702,-0.1968,0.6435,-36.6975,99.5575,286.6763,0.3905,0.3503,-0.1266
1752689969.7391403,0.6864,0.2286,0.497,-6.5538,86.3538,286.6763,0.5125,0.2127,-0.0983
1752689969.7874916,0.7042,0.4345,0.5477,-33.6613,83.7113,286.6763,0.5835,0.0683,-0.0596
1752689969.841241,0.5907,0.67,0.4101,-126.42,110.9588,286.6763,0.5992,-0.0972,-0.0216
1752689969.90507,0.3709,0.8079,0.2094,-132.4225,37.3275,151.1125,0.579,-0.2157,0.0207
1752689969.9442785,0.3407,0.972,0.1013,-91.2713,106.26,198.2312,0.5515,-0.2954,0.0687
1752689969.992506,0.1917,0.9866,0.0468,-186.76,44.345,159.3287,0.5015,-0.3616,0.1219
1752689970.046379,-0.0234,0.9938,-0.132,-118.2475,74.7075,101.6663,0.4473,-0.4047,0.2027
1752689970.17467,-0.0232,0.9759,-0.2064,-117.425,20.7637,69.3875,0.4129,-0.4113,0.246
1752689970.196511,-0.1207,0.9919,-0.3576,-75.4075,6.6588,24.955,0.3861,-0.413,0.2948
1752689970.2223892,-0.1568,0.8351,-0.3743,-63.9012,53.13,29.6712,0.3723,-0.4049,0.327
1752689970.2513907,0.0646,1.0188,-0.2997,-115.8675,-9.94,-30.8612,0.352,-0.3816,0.3675
1752689970.2996726,-0.22,0.7227,-0.6442,-165.3225,48.4663,27.1863,0.3546,-0.3475,0.4092
1752689970.3534925,-0.3184,0.8741,-1.0424,-120.6713,28.6212,26.6262,0.3331,-0.3048,0.4651
1752689970.4017513,-0.186,0.5571,-0.7774,-68.215,9.835,-17.1413,0.3198,-0.2766,0.4921
1752689970.4555488,-0.2364,0.5889,-0.7867,-78.2425,4.2438,-58.8963,0.3219,-0.2454,0.5046
1752689970.5040019,-0.0734,0.7555,-0.8345,-19.495,-44.6512,-96.495,0.3384,-0.2092,0.5109
1752689970.557548,-0.0262,0.748,-0.7878,73.78,-3.2813,-132.2037,0.3695,-0.1973,0.5047
1752689970.619244,0.0955,0.8716,-0.5805,130.5325,125.0725,-286.72,0.4001,-0.188,0.4966
1752689970.660652,0.083,0.7365,-0.8091,21.14,-6.7987,-165.6375,0.4012,-0.1641,0.5002
1752689970.709009,0.2663,0.7678,-0.6514,75.0488,-38.78,-241.8675,0.4283,-0.1214,0.4973
1752689970.7627041,0.4109,0.5486,-0.6015,1.365,4.7075,-155.6975,0.4627,-0.0722,0.4869
1752689970.8111064,0.563,0.5659,-0.6699,8.6187,216.0988,-68.0488,0.461,-0.0092,0.505
1752689970.8647246,0.5175,0.5749,-0.8195,14.6912,-78.8988,-126.3325,0.4243,0.0224,0.5134
1752689970.9136841,0.8434,0.3479,-0.6498,-23.205,-25.2,-97.545,0.4334,0.064,0.518
1752689970.966804,0.7002,0.4867,-0.7071,18.1387,-21.735,-52.955,0.4353,0.1014,0.5081
1752689971.0150704,0.8141,0.2045,-0.6138,-22.6887,-83.0113,-158.2962,0.4351,0.1193,0.4984
1752689971.069847,0.8133,0.1763,-0.6898,-61.7225,-93.7038,-186.9438,0.4446,0.2043,0.4585
1752689971.1179852,0.8425,0.0709,-0.6043,31.1325,-69.7113,-140.3237,0.4385,0.2562,0.4262
1752689971.171911,0.6548,0.1853,-0.6065,-84.5075,-122.955,-268.6863,0.421,0.3237,0.3903
1752689971.220665,0.8394,-0.2801,-0.3708,-47.74,-64.7238,-157.115,0.3752,0.4047,0.3462
1752689971.274017,0.8449,-0.3471,-0.1429,-41.335,-59.8675,-120.3213,0.3321,0.455,0.2992
1752689971.3226547,0.7354,-0.3777,-0.2821,-21.9625,-39.8737,-118.51,0.2953,0.4788,0.2947
1752689971.3769855,0.9963,-0.5855,-0.2289,-11.6988,-14.8487,-72.24,0.2618,0.5011,0.2821
1752689971.4254801,0.7397,-0.51,-0.215,-28.0263,-69.6063,-77.3588,0.2306,0.5202,0.2696
1752689971.4790547,0.8277,-0.7683,0.0195,0.4812,-23.7125,-96.9588,0.1989,0.5344,0.2485
1752689971.5272846,0.6261,-0.7128,-0.0112,-10.955,-141.61,-163.2575,0.147,0.5425,0.2482
1752689971.581092,0.6462,-0.8619,-0.2297,17.465,-91.07,-134.995,0.1016,0.5523,0.2465
1752689971.6293752,0.4365,-0.8084,0.1375,14.7262,-148.5487,-207.06,0.0434,0.5502,0.243
1752689971.6832025,0.1768,-0.9766,-0.0494,33.1975,-27.1338,-121.45,-0.0227,0.5243,0.2859
1752689971.7314959,0.0802,-0.9007,0.1044,11.865,4.865,-106.8288,-0.0633,0.5214,0.2939
1752689971.7862542,-0.0448,-0.9187,-0.0941,28.5775,-31.6138,-145.3462,-0.1177,0.4966,0.2978
1752689971.8505886,-0.1033,-0.9248,-0.0575,6.79,5.355,-175.3587,-0.1663,0.4645,0.2933
1752689971.888262,-0.2144,-0.9745,-0.0755,69.0638,39.7513,-116.445,-0.2195,0.4253,0.2965
1752689971.9369013,-0.3703,-0.8486,-0.1313,82.04,5.8362,-163.1262,-0.2611,0.3704,0.3137
1752689971.9902866,-0.4817,-0.8301,-0.2194,82.18,74.2613,-164.0712,-0.3065,0.289,0.3265
1752689972.038789,-0.5845,-0.7535,-0.133,26.1362,125.1075,-96.7313,-0.3441,0.2139,0.2967
1752689972.0923712,-0.8023,-0.791,-0.034,-28.2362,111.755,-142.7388,-0.3847,0.1742,0.2398
1752689972.1507704,-0.8075,-0.5283,-0.2043,44.8613,86.135,-219.9312,-0.4122,0.1014,0.1954
1752689972.1953127,-0.9019,-0.7174,0.0436,-31.0975,111.7638,-70.1838,-0.4291,0.0298,0.1435
1752689972.2437606,-0.9873,-0.3594,0.0168,-11.0687,24.255,-95.445,-0.4236,-0.0024,0.1254
1752689972.2974095,-0.8649,-0.4069,0.2297,-70.3938,32.5763,24.8587,-0.4253,-0.0279,0.0823
1752689972.345922,-1.0938,-0.3381,0.1601,-133.8488,-21.1575,52.0537,-0.4248,0.006,0.098
1752689972.3994155,-0.9119,-0.5505,0.1821,-31.1238,43.4525,54.8187,-0.4298,0.0276,0.0799
1752689972.4477391,-0.8709,-0.4665,0.3356,-108.4475,5.0838,58.9487,-0.4252,0.0655,0.0727
1752689972.5015342,-0.9582,-0.5581,0.3078,-165.585,16.59,12.705,-0.4166,0.0711,0.0706
1752689972.5499718,-0.8606,-0.3052,0.3664,-139.1337,49.4375,6.685,-0.4165,0.0732,0.0441
1752689972.6045434,-0.7948,-0.464,0.492,-181.8075,37.5375,-1.05,-0.4138,0.0629,0.0148
1752689972.6530194,-0.7596,-0.1327,0.665,-127.5838,58.0037,-21.6737,-0.4158,0.055,-0.0078
1752689972.7066422,-0.6669,-0.1176,0.6301,-173.25,81.0425,-39.8037,-0.4109,0.0325,-0.0354
1752689972.7552025,-0.6668,-0.0293,0.7175,-125.0725,61.3812,-31.115,-0.4012,-0.0105,-0.056
1752689972.8086412,-0.6977,0.1388,0.6658,-134.8462,46.7513,-8.0587,-0.3884,-0.0335,-0.0753
1752689972.8569188,-0.6572,0.0162,0.8334,-118.7463,94.1588,3.325,-0.3832,-0.0608,-0.0795
1752689972.910716,-0.5164,0.2287,0.7361,-173.635,33.8013,66.9113,-0.3745,-0.071,-0.0942
1752689972.9692185,-0.569,0.5811,0.6756,-240.9138,117.5738,20.4837,-0.3671,-0.0956,-0.0939
1752689973.0137594,-0.459,0.5548,0.7463,-139.615,9.1525,-29.8463,-0.3566,-0.141,-0.1057
1752689973.0619984,-0.5286,0.631,0.4244,-186.9,92.925,27.3612,-0.3514,-0.1642,-0.0857
1752689973.1157951,-0.3743,0.7544,0.6118,-114.4763,62.0112,19.775,-0.3385,-0.1719,-0.119
1752689973.164549,-0.5764,0.751,0.3841,-182.1925,117.9413,37.1875,-0.3304,-0.1964,-0.1224
1752689973.2179039,-0.3716,0.8841,0.4079,-57.2425,100.9838,21.525,-0.3188,-0.2071,-0.1413
1752689973.2667034,-0.3038,0.8659,0.3417,-70.8313,80.1063,34.7287,-0.3084,-0.2076,-0.1575
1752689973.3199258,-0.4205,1.0698,0.3591,-152.4075,187.6262,-3.92,-0.2748,-0.2265,-0.1943
1752689973.3837295,-0.2248,0.9428,0.2722,-67.9525,89.5825,-20.6763,-0.2387,-0.2642,-0.1989
1752689973.4230313,-0.2834,1.0264,0.1834,-116.6025,131.6087,-14.1312,-0.1992,-0.2958,-0.216
1752689973.47173,-0.2167,1.0544,0.1899,-123.0688,107.0125,-10.3162,-0.1617,-0.3409,-0.2085
1752689973.525012,-0.1266,0.8856,0.0136,-67.3313,55.7025,16.0825,-0.1456,-0.3611,-0.203
1752689973.5733821,-0.1638,1.0649,0.0349,-51.1963,80.1588,-40.32,-0.1228,-0.3895,-0.1921
1752689973.6271195,-0.0609,0.9822,-0.0404,-38.9463,45.3338,-16.8,-0.07,-0.4052,-0.1987
1752689973.68876,-0.197,1.0691,-0.0817,-36.0675,94.9638,-44.3712,-0.0644,-0.4183,-0.1914
1752689973.7292004,-0.103,0.9882,-0.1322,20.7462,93.3363,-78.995,-0.0197,-0.4334,-0.1966
1752689973.790827,-0.0095,0.9955,-0.0705,35.1138,70.7175,-120.5663,0.041,-0.4308,-0.2113
1752689973.8322163,0.1631,1.0101,-0.0307,30.345,83.4138,-113.3038,0.1154,-0.4334,-0.222
1752689973.8808188,0.1552,1.0044,-0.0016,39.7075,30.0825,-69.125,0.1733,-0.4217,-0.2344
1752689973.9342632,0.2936,1.0475,0.1129,86.3188,61.6087,-164.8237,0.2246,-0.394,-0.2437
1752689973.982482,0.332,0.734,-0.0838,71.9775,70.4988,-70.1225,0.2936,-0.3468,-0.2649
1752689974.0362587,0.5245,0.8879,0.1429,22.3825,90.2388,-52.3162,0.3452,-0.3142,-0.2614
1752689974.0849767,0.6403,0.7565,0.0299,76.6675,99.12,-117.6963,0.3892,-0.3009,-0.2454
1752689974.1393666,0.649,0.7526,0.0589,102.1038,82.9413,-105.0175,0.4526,-0.2394,-0.2409
1752689974.1879454,0.7128,0.6772,0.1195,105.7525,64.8725,-110.845,0.4955,-0.1765,-0.2212
1752689974.2413917,0.788,0.5183,0.0423,104.755,-0.6563,-167.4925,0.5303,-0.0872,-0.2216
1752689974.2901075,0.8988,0.3728,0.1058,130.3312,31.9813,-142.8525,0.5348,-0.0062,-0.2145
1752689974.343438,0.8548,0.2254,0.1682,88.7513,15.47,-161.2537,0.5355,0.0931,-0.1942
1752689974.3917196,0.9654,0.0744,0.1252,49.4287,-19.0225,-182.1662,0.5197,0.1666,-0.184
1752689974.4454887,1.0491,-0.165,0.2117,148.6625,3.6575,-229.5912,0.4771,0.2542,-0.1789
1752689974.504007,0.7559,-0.2672,0.136,138.0137,-17.535,-217.175,0.4103,0.3707,-0.1352
1752689974.5485299,0.7668,-0.6121,0.1002,149.205,-16.4762,-212.7563,0.3177,0.4647,-0.0848
1752689974.5967896,0.703,-0.7178,0.0658,48.9912,-35.0088,-180.5562,0.2125,0.5246,-0.0421
1752689974.6506004,0.5239,-0.8272,0.0395,-65.4063,-63.7438,-150.4387,0.1319,0.5418,-0.0497
1752689974.698933,0.4864,-0.9431,0.1433,-103.11,-56.6562,-148.1987,0.0601,0.5198,-0.1012
1752689974.7527034,0.296,-0.8674,0.2813,-71.925,-51.73,-149.87,-0.0007,0.4885,-0.1264
1752689974.8010497,0.2155,-0.9858,0.4068,-99.3475,-76.3,-120.155,-0.0685,0.4553,-0.1576
1752689974.8547533,-0.1881,-0.6859,0.3743,-67.935,-103.8538,-147.0525,-0.1345,0.4123,-0.1751
1752689974.913358,-0.2344,-0.8279,0.6761,-31.99,-114.2313,-218.505,-0.2068,0.3459,-0.1785
1752689974.9578354,-0.2492,-0.6947,0.4404,-113.5838,-57.8812,-131.705,-0.2761,0.2867,-0.1648
1752689975.005964,-0.4118,-0.7272,0.7142,-80.465,-73.9988,-97.545,-0.3137,0.2138,-0.1665
1752689975.0598283,-0.4451,-0.591,0.5596,-85.1725,-60.6725,-99.33,-0.3444,0.1625,-0.1495
1752689975.1084402,-0.5646,-0.4893,0.7806,-19.1625,-79.2663,-89.3288,-0.3644,0.1095,-0.1439
1752689975.161923,-0.6068,-0.4377,0.5949,-60.41,-65.1438,-102.83,-0.3931,0.0693,-0.1084
1752689975.21027,-0.845,-0.4051,0.8193,24.2375,-52.57,-44.345,-0.4019,0.0305,-0.0931
1752689975.2639472,-0.7295,-0.3115,0.6467,29.3213,-61.3462,17.1675,-0.4189,0.0329,-0.0708
1752689975.3234587,-0.7923,-0.4153,0.4999,120.05,-101.0713,9.2575,-0.4246,0.0403,-0.0388
1752689975.3670049,-0.7391,-0.5651,0.4082,139.545,-74.0775,61.1712,-0.4465,0.077,0.0116
1752689975.4152706,-0.7752,-0.6291,0.2405,116.4625,-142.1525,99.9075,-0.4512,0.1147,0.0535
1752689975.4689982,-0.8291,-0.5973,0.1657,102.5325,-129.6488,90.1688,-0.4431,0.1649,0.1186
1752689975.5178952,-0.6344,-0.7335,-0.0278,109.585,-78.3563,129.0625,-0.4288,0.2114,0.1821
1752689975.5710237,-0.6673,-0.7589,-0.1873,52.0275,-57.3825,141.7062,-0.4005,0.2572,0.2323
1752689975.6193032,-0.5769,-0.9111,-0.2239,120.2513,-33.0838,28.9975,-0.3658,0.2899,0.2723
1752689975.673101,-0.2412,-0.7934,-0.3509,72.7038,-38.0537,46.795,-0.3541,0.2866,0.3062
1752689975.7215652,-0.4058,-0.8753,-0.4048,64.4875,9.8087,61.2325,-0.3389,0.2941,0.3228
1752689975.7762017,-0.4986,-0.9331,-0.4027,112.4288,-34.4925,81.5675,-0.324,0.3025,0.3377
1752689975.8247585,-0.226,-0.8589,-0.5598,63.6125,-93.9663,153.5975,-0.2752,0.3093,0.3763
1752689975.878258,-0.098,-0.8206,-0.5332,20.8512,-111.2913,201.5912,-0.2037,0.3514,0.4162
1752689975.9265425,0.3035,-0.7239,-0.5818,39.4538,-86.1438,139.7287,-0.1112,0.3702,0.4495
1752689975.9802253,0.1494,-0.768,-0.5922,46.2525,-106.2775,223.7025,-0.0168,0.3739,0.4696
1752689976.028891,0.5317,-0.266,-0.4669,65.3888,-99.7413,163.695,0.0739,0.3532,0.4903
1752689976.082362,0.7464,-0.5383,-0.6512,72.2925,-121.0038,184.7738,0.1768,0.3139,0.5004
1752689976.130791,0.8438,-0.1424,-0.4796,47.5213,-110.6875,246.4875,0.2764,0.2699,0.495
1752689976.18538,0.749,-0.0709,-0.3778,29.085,-113.0675,149.0037,0.3637,0.1824,0.495
1752689976.2339041,0.932,0.0436,-0.3248,42.5775,-45.2025,239.5137,0.4194,0.124,0.4796
1752689976.2874403,0.9186,0.2529,-0.3786,-17.5088,-34.8075,161.595,0.456,0.0542,0.4641
1752689976.3357682,0.8383,0.5372,-0.3457,39.6987,-150.8237,286.6763,0.4806,-0.03,0.4434
1752689976.389454,0.7691,0.5795,-0.2387,-70.385,-36.4087,178.6837,0.4859,-0.1336,0.4211
1752689976.4377067,0.3403,0.7944,-0.2543,18.4538,-39.4625,198.0125,0.4655,-0.1803,0.4178
1752689976.4914875,0.4507,0.8474,-0.1857,-20.4225,-8.33,20.7375,0.4424,-0.232,0.3993
1752689976.555684,0.5719,0.8916,-0.2788,-63.91,1.3387,81.97,0.4434,-0.2222,0.4178
1752689976.5946286,0.4638,0.978,-0.4456,-126.4375,5.4862,93.9838,0.4318,-0.2194,0.4351
1752689976.6428373,0.3258,0.8051,-0.2773,-101.9638,-0.2888,55.4137,0.4103,-0.2002,0.4515
1752689976.6966112,0.2799,0.9095,-0.49,-129.2987,-4.8213,104.51,0.4102,-0.1845,0.4732
1752689976.7449908,0.2422,0.5908,-0.1652,-200.8387,-150.1587,61.5213,0.3944,-0.1593,0.485
1752689976.798688,0.4012,0.7039,-0.6687,-222.425,-179.2525,64.0063,0.4627,-0.1005,0.4623
1752689976.861489,0.4147,0.3863,-0.8077,-224.0612,-142.0825,-10.0975,0.506,-0.042,0.4259
1752689976.9017692,0.5216,0.5167,-0.7277,-123.5063,-134.47,39.7687,0.5475,0.0209,0.3874
1752689976.9499273,0.7238,0.0398,-0.8458,-145.985,-169.1812,-78.8463,0.5838,0.0536,0.3301
1752689977.0037835,0.8627,0.1827,-0.683,-173.005,-137.3225,-238.3237,0.6042,0.1399,0.2552
1752689977.0520701,0.8115,-0.083,-0.486,-158.2,-162.1025,-235.235,0.5779,0.268,0.169
1752689977.1058614,0.8213,-0.3502,-0.3904,-146.1687,-140.84,-180.5912,0.5243,0.3529,0.0661
1752689977.166389,0.7058,-0.5072,-0.243,-100.0038,-191.4588,-234.3075,0.4502,0.4105,-0.0391
1752689977.2079575,0.7954,-0.687,-0.01,-107.835,-286.72,-286.72,0.2857,0.4705,-0.1424
1752689977.266387,0.4645,-0.8032,0.0863,-51.8437,-111.3,-139.685,0.0878,0.4796,-0.1778
1752689977.3110135,0.2023,-1.1248,0.336,-82.6175,-204.3387,-204.015,-0.0129,0.4509,-0.1904
1752689977.3592517,-0.1606,-0.9347,0.4215,-144.8562,-184.6687,-233.6775,-0.1478,0.3836,-0.212
1752689977.412986,-0.2253,-0.9625,0.5788,-89.46,-66.5525,-108.5875,-0.2272,0.295,-0.2184
1752689977.4772124,-0.4174,-0.8013,0.6569,-140.9625,-128.3188,-146.3612,-0.2786,0.2317,-0.2107
1752689977.5151153,-0.4423,-0.6076,0.6324,-177.4937,-36.1987,-103.9413,-0.3182,0.1385,-0.2024
1752689977.5716572,-0.5775,-0.686,0.7518,-126.7175,-73.4125,-38.5612,-0.3346,0.0599,-0.2033
1752689977.6172125,-0.5915,-0.3833,0.7496,-125.3613,2.975,-41.6763,-0.3436,0.0127,-0.1778
1752689977.6777341,-0.5646,-0.3473,0.7742,-108.6925,-61.495,-62.09,-0.341,-0.0449,-0.1701
1752689977.7202718,-0.4876,-0.1874,0.5838,-149.9312,72.0125,-42.7262,-0.3443,-0.0916,-0.1515
1752689977.7683961,-0.5607,-0.1323,0.8251,-102.0163,11.2087,-28.3937,-0.3179,-0.1407,-0.1534
1752689977.822231,-0.4876,0.1372,0.7112,-166.145,-32.6025,-14.4112,-0.3227,-0.1693,-0.1182
1752689977.8706145,-0.579,0.3116,0.7724,-112.1138,-20.3,-53.1388,-0.3263,-0.2008,-0.0816
1752689977.9242263,-0.6488,0.2904,0.6762,-68.4775,0.6038,-53.7425,-0.3195,-0.2398,-0.0645
1752689977.9728813,-0.7345,0.1415,0.716,-51.2925,-42.28,12.9762,-0.3125,-0.2605,-0.0472
1752689978.026338,-0.5854,0.4094,0.52,-123.095,-22.7325,52.8063,-0.3143,-0.2582,-0.0244
1752689978.0746958,-0.6875,0.3621,0.433,-71.085,75.6175,22.3563,-0.3217,-0.26,-0.0105
1752689978.1297944,-0.8913,0.5472,0.9449,-185.535,97.475,59.4738,-0.3179,-0.2586,-0.0034
1752689978.1777077,-0.619,0.4416,0.701,-72.4063,127.925,31.885,-0.3283,-0.2528,0.0007
1752689978.2314675,-0.5438,0.5472,0.6895,-96.2938,122.9025,37.695,-0.3286,-0.2426,-0.0286
1752689978.279722,-0.7325,0.7103,0.5052,-153.895,131.1013,44.31,-0.335,-0.2404,-0.0298
1752689978.3335361,-0.4831,0.7851,0.5379,-49.35,104.9125,22.2687,-0.3269,-0.2275,-0.0759
1752689978.3817308,-0.1814,0.7756,0.5632,-156.73,147.14,14.07,-0.3156,-0.232,-0.0932
1752689978.4356093,-0.43,0.8591,0.3976,-214.76,186.9787,58.275,-0.3091,-0.2475,-0.1095
1752689978.4839244,-0.3187,0.9141,0.2872,-57.925,143.1675,6.2213,-0.2866,-0.2608,-0.1291
1752689978.538664,-0.3037,0.8487,0.3208,-6.475,79.7038,39.4712,-0.2642,-0.2624,-0.1679
1752689978.5871015,-0.2308,0.9295,0.3395,-3.5088,85.1113,6.0462,-0.2608,-0.2513,-0.1919
1752689978.6407113,-0.1742,1.0723,0.4269,-169.085,176.1725,96.8975,-0.2276,-0.2696,-0.2148
1752689978.6896336,-0.2158,1.0002,0.2123,-127.4175,132.86,13.1775,-0.2073,-0.2967,-0.2139
1752689978.7428224,-0.108,0.8633,0.0507,-21.77,83.265,3.9463,-0.175,-0.3231,-0.216
1752689978.7914088,-0.2997,1.0406,0.3327,-76.16,206.4037,14.0175,-0.1399,-0.3338,-0.2334
1752689978.844836,-0.0123,0.8714,0.0056,105.035,116.0163,-99.2688,-0.0739,-0.3443,-0.2562
1752689978.90032,-0.0001,1.0674,0.4598,159.53,145.4687,-173.145,0.0122,-0.3056,-0.3188
1752689978.9479496,0.3177,0.8378,0.2781,58.5812,175.0612,-222.1362,0.1243,-0.2569,-0.3578
1752689978.996145,0.316,0.7622,0.7633,-65.2838,188.2037,-229.9937,0.2379,-0.2412,-0.3461
1752689979.0498776,-0.1462,0.8833,-0.4401,98.105,112.7088,-286.72,0.3373,-0.1926,-0.3357
1752689979.0980587,0.8438,0.5357,0.2828,-67.8125,163.6337,26.7488,0.4154,-0.2089,-0.2845
1752689979.1519268,0.8011,0.5581,-0.1249,-48.2212,-34.2038,43.0325,0.4418,-0.2264,-0.254
1752689979.2161307,1.0951,1.0406,0.3615,-78.54,-15.2163,73.3075,0.4547,-0.2293,-0.2379
1752689979.254208,0.9528,0.6509,0.1397,29.5662,14.6212,-75.3463,0.4711,-0.2492,-0.2348
1752689979.3145945,0.7258,0.5598,0.0864,153.3612,111.6063,-24.5788,0.4872,-0.204,-0.223
1752689979.3570244,0.8195,0.6598,-0.0488,117.9325,92.085,-1.9425,0.5263,-0.1464,-0.2127
1752689979.4056346,0.428,0.0536,-0.062,80.8938,143.0712,-27.5538,0.5482,-0.1246,-0.1863
1752689979.4590952,1.0907,0.3364,-0.0614,93.5375,148.855,-144.6987,0.588,-0.0752,-0.1351
1752689979.5077965,0.866,0.4466,-0.157,132.16,107.52,-191.5812,0.6131,0.0105,-0.07
1752689979.5611823,0.9148,0.2431,-0.278,159.3025,154.35,-141.3825,0.6178,0.1103,-0.0084
1752689979.6099155,1.0682,0.1871,-0.2633,138.8013,62.6937,-233.5112,0.5961,0.2008,0.0741
1752689979.6632042,1.0804,-0.0755,-0.3472,69.0638,35.2975,-229.0487,0.5347,0.3202,0.1218
1752689979.7186096,0.9277,-0.2994,-0.328,41.93,-28.0525,-286.72,0.4673,0.4,0.1313
1752689979.7662892,0.7641,-0.4021,-0.3773,7.2013,-69.3088,-5.4513,0.3889,0.4633,0.1267
1752689979.8145068,0.7853,-0.452,-0.6564,103.3113,-68.5388,-86.8,0.3752,0.4747,0.1198
1752689979.8683028,0.8456,-0.4404,-0.3292,68.6175,-19.495,-72.1263,0.3472,0.4873,0.1476
1752689979.932544,0.7304,-0.428,-0.3396,63.2537,-11.6025,-45.3162,0.3356,0.4885,0.169
1752689979.9703794,0.738,-0.4902,-0.3425,72.7388,-62.475,-9.4587,0.3301,0.4887,0.1896
1752689980.018677,0.7028,-0.4564,-0.3292,71.75,-54.145,-29.4875,0.3206,0.4865,0.1947
1752689980.0724242,0.7976,-0.5106,-0.2715,70.9013,-45.885,-80.8675,0.3168,0.4878,0.2201
1752689980.1299698,0.7594,-0.8378,-0.3938,-18.5762,-85.3125,-286.72,0.2191,0.5249,0.2211
1752689980.1755285,0.5147,-0.9121,-0.131,7.8138,-44.975,-124.4513,0.1492,0.5431,0.2302
1752689980.22399,0.4882,-0.8796,-0.2588,-0.9275,-71.7675,-147.7437,0.0846,0.5541,0.2185
1752689980.2775552,0.3252,-0.8902,-0.1318,-26.0137,-45.5612,-83.0113,0.0557,0.5523,0.2176
1752689980.3260064,0.3916,-1.0641,-0.1088,-64.1638,-71.7238,-46.6287,0.0237,0.5544,0.1918
1752689980.3795774,0.368,-0.871,0.0694,-41.475,-38.9637,-32.4538,0.0231,0.5547,0.176
1752689980.428184,0.2627,-0.9438,-0.0312,-96.8888,-26.5737,-2.9663,0.0129,0.5648,0.1497
1752689980.482659,0.2644,-0.8995,0.1114,-47.3025,-18.9962,13.9475,0.0244,0.5622,0.1247
1752689980.5309896,0.3161,-0.8696,0.2406,-74.3838,0.3588,17.6837,0.0245,0.5681,0.1005
1752689980.5846605,0.3099,-0.8197,0.3127,-77.98,16.065,31.1238,0.0307,0.5681,0.0608
